Folder: CombIgor/Example Files/Plugins/DiffractionRef/ISCD

Note: README.txt
The Folder included with this README file is the open-source COMBIgor package for commercial Igor Pro. Included within is an installer (COMBIgor_Installer.pxp) that should place the package folder in the right location to enable full functionality.

After installing COMBIgor, please take time to familiarize yourself with its functionality by following the tutorial available through COMBIgor. Also you can take the Igor Pro tutorial if you need to familarize youself with this softweare package.

More information about COMBIgor installation and use is available at www.COMBIgor.com

File: powderpattern_table_collCode#27210.csv
H	K	L	2THETA	D-VALUE	MULT	INTENSITY
1	0	1	11.39	7.7694	2	9.5
0	1	-1	14.55	6.0888	2	43.7
0	0	2	16.01	5.5345	2	575.3
1	1	1	16.67	5.3166	2	10.1
1	-1	1	16.67	5.3166	2	10.1
1	0	2	17.97	4.9356	2	16.0
2	0	-1	18.13	4.8924	2	66.1
2	-1	0	20.33	4.3673	2	882.0
1	-1	2	21.74	4.0872	2	119.5
1	1	2	21.74	4.0871	2	119.5
2	-1	-1	21.88	4.0625	2	22.1
2	1	-1	21.88	4.0625	2	22.1
2	0	2	22.89	3.8847	2	50.4
0	2	0	24.42	3.6455	2	1000.0
1	0	3	25.48	3.4951	2	19.4
3	0	-1	25.79	3.4544	2	257.5
2	1	2	25.99	3.4284	2	167.8
2	-1	-2	25.99	3.4284	2	167.8
1	-2	-1	27.02	3.3003	2	146.2
1	-2	1	27.02	3.3003	2	146.2
0	1	3	27.08	3.2921	2	53.7
1	1	3	28.32	3.1517	2	76.0
1	-1	-3	28.32	3.1517	2	76.0
3	1	1	28.59	3.1217	2	79.1
3	-1	-1	28.59	3.1217	2	79.1
2	0	3	29.22	3.0560	2	403.1
0	2	2	29.34	3.0444	2	131.8
3	0	2	29.39	3.0389	2	542.6
2	2	0	29.47	3.0308	2	64.9
1	-2	2	30.48	2.9323	2	232.0
1	2	2	30.48	2.9323	2	232.0
2	-2	-1	30.58	2.9232	2	505.3
2	2	1	30.58	2.9232	2	505.3
2	1	3	31.75	2.8185	2	0.7
2	-1	-3	31.75	2.8185	2	0.7
3	1	-2	31.90	2.8050	2	7.4
3	1	2	31.90	2.8050	2	7.4
4	0	0	32.84	2.7270	2	397.8
1	0	-4	33.41	2.6823	2	228.6
2	-2	-2	33.72	2.6583	2	0.0
2	2	-2	33.72	2.6583	2	0.0
4	0	1	33.85	2.6478	2	90.6
3	0	-3	34.64	2.5898	2	0.0
4	1	0	35.13	2.5542	2	41.8
1	2	-3	35.58	2.5229	2	214.7
1	-2	-3	35.58	2.5229	2	214.7
1	-1	4	35.67	2.5173	2	42.4
1	-1	-4	35.67	2.5173	2	42.4
3	2	-1	35.81	2.5075	2	34.0
3	-2	1	35.81	2.5075	2	34.0
4	1	1	36.09	2.4888	2	46.6
4	-1	-1	36.09	2.4888	2	46.6
2	0	-4	36.41	2.4678	2	4.0
4	0	2	36.74	2.4462	2	234.0
3	-1	-3	36.83	2.4404	2	17.5
3	-1	3	36.83	2.4404	2	17.5
0	3	-1	37.90	2.3738	2	2.0
2	2	-3	38.44	2.3420	2	35.4
2	-2	3	38.44	2.3420	2	35.4
2	1	4	38.51	2.3375	2	0.9
2	-1	-4	38.51	2.3375	2	0.9
3	2	-2	38.57	2.3342	2	2.6
3	2	2	38.57	2.3342	2	2.6
1	3	-1	38.82	2.3195	2	3.6
1	-3	1	38.82	2.3195	2	3.6
4	-1	-2	38.83	2.3191	2	21.9
4	1	2	38.83	2.3191	2	21.9
2	-3	0	40.64	2.2199	2	52.0
0	2	4	40.94	2.2041	2	43.2
3	0	4	40.98	2.2020	2	1.3
4	0	3	41.16	2.1930	2	2.7
4	2	0	41.35	2.1836	2	6.1
1	3	-2	41.41	2.1803	2	35.1
1	3	2	41.41	2.1803	2	35.1
2	-3	1	41.49	2.1766	2	1.1
2	3	-1	41.49	2.1766	2	1.1
1	0	5	41.63	2.1696	2	26.6
1	-2	4	41.81	2.1605	2	0.4
1	-2	-4	41.81	2.1605	2	0.4
4	-2	-1	42.18	2.1424	2	0.5
4	2	1	42.18	2.1424	2	0.5
5	0	-1	42.22	2.1404	2	6.5
0	1	5	42.68	2.1183	2	9.1
3	-2	3	42.83	2.1113	2	46.6
3	2	3	42.83	2.1113	2	46.6
3	1	-4	42.90	2.1080	2	0.4
3	1	4	42.90	2.1080	2	0.4
4	1	-3	43.07	2.1001	2	72.2
4	-1	3	43.07	2.1001	2	72.2
1	1	5	43.52	2.0795	2	0.9
1	-1	-5	43.52	2.0795	2	0.9
2	3	-2	43.94	2.0603	2	13.2
2	-3	-2	43.94	2.0603	2	13.2
5	1	1	44.09	2.0538	2	1.4
5	1	-1	44.09	2.0538	2	1.4
2	0	5	44.15	2.0513	2	16.1
2	2	-4	44.32	2.0436	2	2.5
2	2	4	44.32	2.0436	2	2.5
4	-2	2	44.61	2.0313	2	1.4
4	2	-2	44.61	2.0313	2	1.4
5	0	2	44.65	2.0296	2	0.5
0	3	3	44.65	2.0296	2	16.0
1	-3	-3	45.45	1.9954	2	33.6
1	-3	3	45.45	1.9954	2	33.6
3	3	-1	45.64	1.9877	2	9.3
3	-3	-1	45.64	1.9877	2	9.3
2	1	5	45.96	1.9746	2	3.7
2	-1	-5	45.96	1.9746	2	3.7
5	1	2	46.44	1.9553	2	0.1
5	1	-2	46.44	1.9553	2	0.1
4	0	-4	46.77	1.9424	2	3.3
2	-3	3	47.82	1.9022	2	0.4
2	3	3	47.82	1.9022	2	0.4
3	3	-2	47.93	1.8980	2	0.4
3	-3	-2	47.93	1.8980	2	0.4
3	0	-5	48.12	1.8909	2	13.8
3	-2	-4	48.28	1.8849	2	136.0
3	-2	4	48.28	1.8849	2	136.0
4	-2	-3	48.44	1.8792	2	1.0
4	2	3	48.44	1.8792	2	1.0
5	0	-3	48.47	1.8779	2	4.3
4	-1	4	48.50	1.8769	2	1.9
4	1	4	48.50	1.8769	2	1.9
1	-2	5	48.85	1.8644	2	33.6
1	-2	-5	48.85	1.8644	2	33.6
5	-2	1	49.37	1.8458	2	49.5
5	2	-1	49.37	1.8458	2	49.5
3	1	-5	49.82	1.8303	2	60.9
3	-1	-5	49.82	1.8303	2	60.9
0	4	0	50.04	1.8227	2	502.7
1	0	6	50.15	1.8190	2	0.0
5	1	3	50.16	1.8185	2	3.7
5	1	-3	50.16	1.8185	2	3.7
4	3	0	50.29	1.8144	2	19.5
1	-3	4	50.69	1.8010	2	3.0
1	3	-4	50.69	1.8010	2	3.0
6	0	-1	50.90	1.7940	2	31.9
4	-3	-1	51.01	1.7905	2	28.9
4	3	1	51.01	1.7905	2	28.9
2	2	-5	51.09	1.7877	2	4.3
2	2	5	51.09	1.7877	2	4.3
1	-4	1	51.50	1.7746	2	0.3
1	4	1	51.50	1.7746	2	0.3
5	-2	-2	51.54	1.7733	2	5.1
5	2	-2	51.54	1.7733	2	5.1
3	-3	3	51.57	1.7722	2	18.8
3	-3	-3	51.57	1.7722	2	18.8
1	-1	6	51.80	1.7649	2	8.5
1	1	6	51.80	1.7649	2	8.5
6	1	0	51.83	1.7640	2	122.5
2	0	6	52.35	1.7476	2	6.6
6	1	-1	52.53	1.7420	2	29.2
6	-1	-1	52.53	1.7420	2	29.2
2	3	4	52.87	1.7316	2	0.4
2	3	-4	52.87	1.7316	2	0.4
0	4	2	52.88	1.7313	2	13.3
2	4	0	52.97	1.7288	2	0.1
6	0	2	53.02	1.7272	2	13.5
4	-3	-2	53.12	1.7241	2	4.6
4	3	-2	53.12	1.7241	2	4.6
4	0	-5	53.30	1.7187	2	0.1
4	2	4	53.45	1.7142	2	3.2
4	-2	4	53.45	1.7142	2	3.2
5	0	4	53.48	1.7132	2	20.5
1	4	-2	53.60	1.7099	2	0.8
1	4	2	53.60	1.7099	2	0.8
2	-4	-1	53.66	1.7081	2	2.3
2	4	-1	53.66	1.7081	2	2.3
2	1	6	53.95	1.6994	2	15.8
2	-1	6	53.95	1.6994	2	15.8
6	-1	-2	54.60	1.6807	2	2.0
6	-1	2	54.60	1.6807	2	2.0
3	2	-5	54.68	1.6785	2	51.3
3	-2	5	54.68	1.6785	2	51.3
4	1	5	54.88	1.6729	2	0.0
4	-1	-5	54.88	1.6729	2	0.0
5	2	3	55.00	1.6694	2	69.4
5	2	-3	55.00	1.6694	2	69.4
5	-1	-4	55.06	1.6678	2	0.1
5	1	-4	55.06	1.6678	2	0.1
2	4	-2	55.70	1.6501	2	2.9
2	-4	-2	55.70	1.6501	2	2.9
0	2	6	55.85	1.6461	2	64.3
3	0	-6	55.88	1.6452	2	0.0
0	3	-5	56.20	1.6366	2	7.0
3	-3	4	56.38	1.6318	2	0.1
3	-3	-4	56.38	1.6318	2	0.1
6	0	3	56.42	1.6308	2	4.1
4	3	3	56.52	1.6282	2	22.3
4	-3	-3	56.52	1.6282	2	22.3
1	2	-6	56.54	1.6276	2	17.2
1	-2	6	56.54	1.6276	2	17.2
6	-2	0	56.57	1.6269	2	6.8
1	-3	5	56.89	1.6185	2	3.0
1	-3	-5	56.89	1.6185	2	3.0
1	-4	-3	56.98	1.6162	2	0.4
1	4	3	56.98	1.6162	2	0.4
3	-4	-1	57.14	1.6121	2	17.0
3	4	1	57.14	1.6121	2	17.0
6	2	-1	57.23	1.6096	2	6.0
6	2	1	57.23	1.6096	2	6.0
5	-3	1	57.36	1.6063	2	0.3
5	3	-1	57.36	1.6063	2	0.3
3	1	6	57.42	1.6048	2	8.7
3	-1	-6	57.42	1.6048	2	8.7
6	1	3	57.95	1.5915	2	12.2
6	1	-3	57.95	1.5915	2	12.2
2	-2	6	58.58	1.5759	2	0.2
2	2	-6	58.58	1.5759	2	0.2
2	-3	5	58.92	1.5675	2	2.0
2	-3	-5	58.92	1.5675	2	2.0
2	4	3	59.00	1.5654	2	37.8
2	4	-3	59.00	1.5654	2	37.8
1	0	-7	59.02	1.5649	2	0.3
3	-4	-2	59.10	1.5631	2	45.6
3	4	2	59.10	1.5631	2	45.6
6	-2	2	59.19	1.5609	2	1.5
6	2	2	59.19	1.5609	2	1.5
5	-3	2	59.32	1.5578	2	1.1
5	3	-2	59.32	1.5578	2	1.1
4	-2	-5	59.46	1.5546	2	2.5
4	2	5	59.46	1.5546	2	2.5
5	0	-5	59.49	1.5539	2	12.2
5	-2	4	59.63	1.5505	2	3.8
5	2	-4	59.63	1.5505	2	3.8
0	1	-7	59.85	1.5454	2	15.4
7	0	-1	59.95	1.5431	2	0.0
7	0	1	59.95	1.5431	2	0.0